left_im,right_im,leftori,rightori,corrAns,angle,thisN,thisTrialN,thisRepN,key_resp.keys,key_resp.corr,key_resp.rt,key_resp.duration,trials.thisRepN,trials.thisTrialN,trials.thisN,trials.thisIndex,thisRow.t,notes,Intructions_1.started,instr_key_1.started,instr_textbox1.started,Intructions_1.stopped,instr_key_1.keys,instr_key_1.rt,instr_key_1.duration,Intructions_2.started,image_L_3.started,image_R_3.started,instr_key_2.started,instrtxt2.started,Intructions_2.stopped,trial.started,image_L.started,image_R.started,key_resp.started,main_instr.started,trial_count.started,trial.stopped,trials.key_resp.keys,trials.key_resp.corr,trials.key_resp.rt,trials.key_resp.duration,feedback.started,fbtext.started,fbtext.stopped,feedback.stopped,the_end.started,end_txt.started,end_key.started,text.started,the_end.stopped,session,participant,date,expName,psychopyVersion,frameRate,expStart,
,,,,,,,,,,,,,,,,,,,0.018529299879446626,0.03077160008251667,0.03077160008251667,1.1121320000384003,m,1.028082099976018,None,,,,,,,,,,,,,,,,,,,,,,,,,,,001,,2025-02-15_14h38.57.604,MentalRotation,2024.2.4,60.00448831401875,2025-02-15 14h39.05.983106 +0000,
,,,,,,,,,,,,,,,,,,,,,,,,,,1.2949866000562906,1.4405841000843793,1.4405841000843793,1.4405841000843793,1.4405841000843793,5.330583299975842,,,,,,,,,,,,,,,,,,,,,001,,2025-02-15_14h38.57.604,MentalRotation,2024.2.4,60.00448831401875,2025-02-15 14h39.05.983106 +0000,
FR.png,F.png,0,225,m,225,0,0,0,m,1,1.8693858999758959,None,0,0,0,27,5.541893699904904,,,,,,,,,,,,,,,5.499640600057319,5.541893699904904,5.541893699904904,5.541893699904904,5.541893699904904,5.541893699904904,7.427382299909368,m,1,1.8693858999758959,None,7.431654599960893,7.440690899966285,8.107414199970663,7.9260179998818785,,,,,,001,,2025-02-15_14h38.57.604,MentalRotation,2024.2.4,60.00448831401875,2025-02-15 14h39.05.983106 +0000,
F.png,F.png,0,180,n,180,1,1,0,n,1,0.17739080009050667,None,0,1,1,8,8.107414199970663,,,,,,,,,,,,,,,8.094951000064611,8.107414199970663,8.107414199970663,8.107414199970663,8.107414199970663,8.107414199970663,8.294557699933648,n,1,0.17739080009050667,None,8.294872300000861,8.30728970002383,,8.807978699915111,,,,,,001,,2025-02-15_14h38.57.604,MentalRotation,2024.2.4,60.00448831401875,2025-02-15 14h39.05.983106 +0000,
FR.png,FR.png,0,45,n,45,2,2,0,n,1,None,None,0,2,2,18,9.014206700026989,,,,,,,,,,,,,,,8.970518999965861,9.014206700026989,9.014206700026989,9.014206700026989,9.014206700026989,9.014206700026989,9.12782120006159,n,1,None,None,9.12814599997364,9.139356599887833,9.79752040002495,9.624344900017604,,,,,,001,,2025-02-15_14h38.57.604,MentalRotation,2024.2.4,60.00448831401875,2025-02-15 14h39.05.983106 +0000,
F.png,F.png,0,135,n,135,3,3,0,m,0,0.007985200034454465,None,0,3,3,6,9.79752040002495,,,,,,,,,,,,,,,9.76170750008896,9.79752040002495,9.79752040002495,9.79752040002495,9.79752040002495,9.79752040002495,9.808199299965054,m,0,0.007985200034454465,None,9.812552399933338,9.821751900017262,10.45519130001776,10.307040499988943,,,,,,001,,2025-02-15_14h38.57.604,MentalRotation,2024.2.4,60.00448831401875,2025-02-15 14h39.05.983106 +0000,
FR.png,FR.png,0,315,n,315,4,4,0,m,0,0.09150219988077879,None,0,4,4,30,10.45519130001776,,,,,,,,,,,,,,,10.439022599952295,10.45519130001776,10.45519130001776,10.45519130001776,10.45519130001776,10.45519130001776,10.558069499908015,m,0,0.09150219988077879,None,10.558326500002295,10.570668200030923,11.187551100039855,11.056226100074127,,,,,,001,,2025-02-15_14h38.57.604,MentalRotation,2024.2.4,60.00448831401875,2025-02-15 14h39.05.983106 +0000,
FR.png,FR.png,0,135,n,135,5,5,0,m,0,0.02399919996969402,None,0,5,5,22,11.187551100039855,,,,,,,,,,,,,,,11.172749700024724,11.187551100039855,11.187551100039855,11.187551100039855,11.187551100039855,11.187551100039855,11.223462800029665,m,0,0.02399919996969402,None,11.223712499951944,11.237129299901426,11.870723400032148,11.722204099874943,,,,,,001,,2025-02-15_14h38.57.604,MentalRotation,2024.2.4,60.00448831401875,2025-02-15 14h39.05.983106 +0000,
F.png,FR.png,0,135,m,135,6,6,0,m,1,0.022390299942344427,None,0,6,6,7,11.870723400032148,,,,,,,,,,,,,,,11.84767369995825,11.870723400032148,11.870723400032148,11.870723400032148,11.870723400032148,11.870723400032148,11.906673300080001,m,1,0.022390299942344427,None,11.908634299878031,11.919369200011715,12.55293249990791,12.405064600054175,,,,,,001,,2025-02-15_14h38.57.604,MentalRotation,2024.2.4,60.00448831401875,2025-02-15 14h39.05.983106 +0000,
F.png,F.png,0,315,n,315,7,7,0,m,0,0.03994550020433962,None,0,7,7,14,12.55293249990791,,,,,,,,,,,,,,,12.530007699970156,12.55293249990791,12.55293249990791,12.55293249990791,12.55293249990791,12.55293249990791,12.60596750001423,m,0,0.03994550020433962,None,12.607798399869353,12.61858020001091,13.25229229987599,13.104365899926051,,,,,,001,,2025-02-15_14h38.57.604,MentalRotation,2024.2.4,60.00448831401875,2025-02-15 14h39.05.983106 +0000,
F.png,FR.png,0,315,m,315,8,8,0,m,1,0.0643796999938786,None,0,8,8,15,13.25229229987599,,,,,,,,,,,,,,,13.233810500008985,13.25229229987599,13.25229229987599,13.25229229987599,13.25229229987599,13.25229229987599,13.322322899941355,m,1,0.0643796999938786,None,13.324018500046805,13.33504749997519,13.951706700026989,13.820701000047848,,,,,,001,,2025-02-15_14h38.57.604,MentalRotation,2024.2.4,60.00448831401875,2025-02-15 14h39.05.983106 +0000,
FR.png,FR.png,0,270,n,270,9,9,0,m,0,0.076411799993366,None,0,9,9,28,13.951706700026989,,,,,,,,,,,,,,,13.943181399954483,13.951706700026989,13.951706700026989,13.951706700026989,13.951706700026989,13.951706700026989,14.037680400069803,m,0,0.076411799993366,None,14.039397699991241,14.05064809997566,14.682262999936938,14.535760500002652,,,,,,001,,2025-02-15_14h38.57.604,MentalRotation,2024.2.4,60.00448831401875,2025-02-15 14h39.05.983106 +0000,
FR.png,F.png,0,45,m,45,10,10,0,m,1,0.03569220006465912,None,0,10,10,19,14.682262999936938,,,,,,,,,,,,,,,14.64521549991332,14.682262999936938,14.682262999936938,14.682262999936938,14.682262999936938,14.682262999936938,14.722320900065824,m,1,0.03569220006465912,None,14.724180599907413,14.733338800026104,15.348596900003031,15.218779399991035,,,,,,001,,2025-02-15_14h38.57.604,MentalRotation,2024.2.4,60.00448831401875,2025-02-15 14h39.05.983106 +0000,
F.png,F.png,0,45,n,45,11,11,0,m,0,0.06120810005813837,None,0,11,11,2,15.348596900003031,,,,,,,,,,,,,,,15.31675329990685,15.348596900003031,15.348596900003031,15.348596900003031,15.348596900003031,15.348596900003031,15.419777699979022,m,0,0.06120810005813837,None,15.421573400031775,15.432767699938267,16.065518700052053,15.919125000014901,,,,,,001,,2025-02-15_14h38.57.604,MentalRotation,2024.2.4,60.00448831401875,2025-02-15 14h39.05.983106 +0000,
FR.png,F.png,0,270,m,270,12,12,0,m,1,0.06674410006962717,None,0,12,12,29,16.065518700052053,,,,,,,,,,,,,,,16.027267700061202,16.065518700052053,16.065518700052053,16.065518700052053,16.065518700052053,16.065518700052053,16.136032599955797,m,1,0.06674410006962717,None,16.13771210005507,16.148580000037327,16.7634763000533,16.634233799995854,,,,,,001,,2025-02-15_14h38.57.604,MentalRotation,2024.2.4,60.00448831401875,2025-02-15 14h39.05.983106 +0000,
F.png,F.png,0,225,n,225,13,13,0,m,0,0.13677189988084137,None,0,13,13,10,16.7634763000533,,,,,,,,,,,,,,,16.738432500045747,16.7634763000533,16.7634763000533,16.7634763000533,16.7634763000533,16.7634763000533,16.903051299974322,m,0,0.13677189988084137,None,16.905334699898958,16.914985799929127,17.51279559987597,17.399969700025395,,,,,,001,,2025-02-15_14h38.57.604,MentalRotation,2024.2.4,60.00448831401875,2025-02-15 14h39.05.983106 +0000,
FR.png,F.png,0,135,m,135,14,14,0,m,1,0.11543480004183948,None,0,14,14,23,17.51279559987597,,,,,,,,,,,,,,,17.489250699989498,17.51279559987597,17.51279559987597,17.51279559987597,17.51279559987597,17.51279559987597,17.634263899875805,m,1,0.11543480004183948,None,17.636251999996603,17.647312100045383,18.295754000078887,18.132361100055277,,,,,,001,,2025-02-15_14h38.57.604,MentalRotation,2024.2.4,60.00448831401875,2025-02-15 14h39.05.983106 +0000,
FR.png,FR.png,0,225,n,225,15,15,0,m,0,0.0793322001118213,None,0,15,15,26,18.295754000078887,,,,,,,,,,,,,,,18.25836080010049,18.295754000078887,18.295754000078887,18.295754000078887,18.295754000078887,18.295754000078887,18.38343090005219,m,0,0.0793322001118213,None,18.385365299880505,18.39667719998397,,18.89808279997669,,,,,,001,,2025-02-15_14h38.57.604,MentalRotation,2024.2.4,60.00448831401875,2025-02-15 14h39.05.983106 +0000,
F.png,FR.png,0,225,m,225,16,16,0,m,1,0.06230590003542602,None,0,16,16,11,19.0281211999245,,,,,,,,,,,,,,,18.99759480007924,19.0281211999245,19.0281211999245,19.0281211999245,19.0281211999245,19.0281211999245,19.099560800008476,m,1,0.06230590003542602,None,19.101227500010282,19.112576300045475,19.717991800047457,19.597818600013852,,,,,,001,,2025-02-15_14h38.57.604,MentalRotation,2024.2.4,60.00448831401875,2025-02-15 14h39.05.983106 +0000,
F.png,FR.png,0,45,m,45,17,17,0,m,1,0.1229946999810636,None,0,17,17,3,19.717991800047457,,,,,,,,,,,,,,,19.69503919989802,19.717991800047457,19.717991800047457,19.717991800047457,19.717991800047457,19.717991800047457,19.848679499933496,m,1,0.1229946999810636,None,19.848932900000364,19.861745700007305,20.48619750002399,20.347338000079617,,,,,,001,,2025-02-15_14h38.57.604,MentalRotation,2024.2.4,60.00448831401875,2025-02-15 14h39.05.983106 +0000,
FR.png,F.png,0,180,m,180,18,18,0,m,1,0.12558750016614795,None,0,18,18,25,20.48619750002399,,,,,,,,,,,,,,,20.448842100100592,20.48619750002399,20.48619750002399,20.48619750002399,20.48619750002399,20.48619750002399,20.61461489996873,m,1,0.12558750016614795,None,20.614928599912673,20.627632499905303,21.23359979991801,21.112615699879825,,,,,,001,,2025-02-15_14h38.57.604,MentalRotation,2024.2.4,60.00448831401875,2025-02-15 14h39.05.983106 +0000,
FR.png,F.png,0,315,m,315,19,19,0,m,1,0.08709559985436499,None,0,19,19,31,21.23359979991801,,,,,,,,,,,,,,,21.21027610008605,21.23359979991801,21.23359979991801,21.23359979991801,21.23359979991801,21.23359979991801,21.33091580006294,m,1,0.08709559985436499,None,21.33120090002194,21.343623700086027,21.959121600026265,21.82924579991959,,,,,,001,,2025-02-15_14h38.57.604,MentalRotation,2024.2.4,60.00448831401875,2025-02-15 14h39.05.983106 +0000,
FR.png,FR.png,0,90,n,90,20,20,0,m,0,0.08162980014458299,None,0,20,20,20,21.959121600026265,,,,,,,,,,,,,,,21.934427100000903,21.959121600026265,21.959121600026265,21.959121600026265,21.959121600026265,21.959121600026265,22.04694309993647,m,0,0.08162980014458299,None,22.048699599923566,22.06005429988727,22.648077599937096,22.54627580009401,,,,,,001,,2025-02-15_14h38.57.604,MentalRotation,2024.2.4,60.00448831401875,2025-02-15 14h39.05.983106 +0000,
FR.png,FR.png,0,0,n,0,21,21,0,m,0,0.10857739998027682,None,0,21,21,16,22.648077599937096,,,,,,,,,,,,,,,22.635247600032017,22.648077599937096,22.648077599937096,22.648077599937096,22.648077599937096,22.648077599937096,22.76375519996509,m,0,0.10857739998027682,None,22.764031799975783,22.775329899974167,23.401415100088343,23.260985600063577,,,,,,001,,2025-02-15_14h38.57.604,MentalRotation,2024.2.4,60.00448831401875,2025-02-15 14h39.05.983106 +0000,
F.png,F.png,0,0,n,0,22,22,0,m,0,0.1168325999751687,None,0,22,22,0,23.401415100088343,,,,,,,,,,,,,,,23.357014100067317,23.401415100088343,23.401415100088343,23.401415100088343,23.401415100088343,23.401415100088343,23.528334900038317,m,0,0.1168325999751687,None,23.52859320002608,23.541338100098073,24.156135499943048,24.02708559995517,,,,,,001,,2025-02-15_14h38.57.604,MentalRotation,2024.2.4,60.00448831401875,2025-02-15 14h39.05.983106 +0000,
F.png,FR.png,0,270,m,270,23,23,0,m,1,0.10985760018229485,None,0,23,23,13,24.156135499943048,,,,,,,,,,,,,,,24.127573400037363,24.156135499943048,24.156135499943048,24.156135499943048,24.156135499943048,24.156135499943048,24.278152599930763,m,1,0.10985760018229485,None,24.280376799870282,24.290680899983272,24.895824099890888,24.776257599936798,,,,,,001,,2025-02-15_14h38.57.604,MentalRotation,2024.2.4,60.00448831401875,2025-02-15 14h39.05.983106 +0000,
F.png,FR.png,0,90,m,90,24,24,0,m,1,0.17469430016353726,None,0,24,24,5,24.895824099890888,,,,,,,,,,,,,,,24.87538390001282,24.895824099890888,24.895824099890888,24.895824099890888,24.895824099890888,24.895824099890888,25.0772386000026,m,1,0.17469430016353726,None,25.077516800025478,25.089894300093874,25.714639900019392,25.576666600070894,,,,,,001,,2025-02-15_14h38.57.604,MentalRotation,2024.2.4,60.00448831401875,2025-02-15 14h39.05.983106 +0000,
FR.png,F.png,0,90,m,90,25,25,0,m,1,0.1632414001505822,None,0,25,25,21,25.714639900019392,,,,,,,,,,,,,,,25.680541699985042,25.714639900019392,25.714639900019392,25.714639900019392,25.714639900019392,25.714639900019392,25.89239659998566,m,1,0.1632414001505822,None,25.892692199908197,25.905699899885803,,26.393812000053003,,,,,,001,,2025-02-15_14h38.57.604,MentalRotation,2024.2.4,60.00448831401875,2025-02-15 14h39.05.983106 +0000,
F.png,FR.png,0,180,m,180,26,26,0,m,1,0.33763090008869767,None,0,26,26,9,26.547710499959067,,,,,,,,,,,,,,,26.50225850008428,26.547710499959067,26.547710499959067,26.547710499959067,26.547710499959067,26.547710499959067,26.891850299900398,m,1,0.33763090008869767,None,26.892108799889684,26.904854299966246,27.51343380007893,27.39017909998074,,,,,,001,,2025-02-15_14h38.57.604,MentalRotation,2024.2.4,60.00448831401875,2025-02-15 14h39.05.983106 +0000,
FR.png,F.png,0,0,m,0,27,27,0,m,1,0.2521209002006799,None,0,27,27,17,27.51343380007893,,,,,,,,,,,,,,,27.48028920008801,27.51343380007893,27.51343380007893,27.51343380007893,27.51343380007893,27.51343380007893,27.774314899928868,m,1,0.2521209002006799,None,27.77458789991215,27.78755629993975,28.402641899883747,28.272541200043634,,,,,,001,,2025-02-15_14h38.57.604,MentalRotation,2024.2.4,60.00448831401875,2025-02-15 14h39.05.983106 +0000,
F.png,F.png,0,90,n,90,28,28,0,m,0,0.229695999994874,None,0,28,28,4,28.402641899883747,,,,,,,,,,,,,,,28.372859199997038,28.402641899883747,28.402641899883747,28.402641899883747,28.402641899883747,28.402641899883747,28.640336300013587,m,0,0.229695999994874,None,28.642396699870005,28.65322869992815,29.268788299988955,29.13893310003914,,,,,,001,,2025-02-15_14h38.57.604,MentalRotation,2024.2.4,60.00448831401875,2025-02-15 14h39.05.983106 +0000,
F.png,FR.png,0,0,m,0,29,29,0,m,1,0.21790500008501112,None,0,29,29,1,29.268788299988955,,,,,,,,,,,,,,,29.242360800039023,29.268788299988955,29.268788299988955,29.268788299988955,29.268788299988955,29.268788299988955,29.489547699922696,m,1,0.21790500008501112,None,29.49136019987054,29.50204570009373,30.118492000037804,29.98767860000953,,,,,,001,,2025-02-15_14h38.57.604,MentalRotation,2024.2.4,60.00448831401875,2025-02-15 14h39.05.983106 +0000,
F.png,F.png,0,270,n,270,30,30,0,m,0,0.2450045000296086,None,0,30,30,12,30.118492000037804,,,,,,,,,,,,,,,30.08922649989836,30.118492000037804,30.118492000037804,30.118492000037804,30.118492000037804,30.118492000037804,30.371628399938345,m,0,0.2450045000296086,None,30.373421899974346,30.384930399945006,31.009522299980745,30.870104900095612,,,,,,001,,2025-02-15_14h38.57.604,MentalRotation,2024.2.4,60.00448831401875,2025-02-15 14h39.05.983106 +0000,
FR.png,FR.png,0,180,n,180,31,31,0,m,0,0.30944520002231,None,0,31,31,24,31.009522299980745,,,,,,,,,,,,,,,30.978531799977645,31.009522299980745,31.009522299980745,31.009522299980745,31.009522299980745,31.009522299980745,31.32205930002965,m,0,0.30944520002231,None,31.322324299952015,31.333872499875724,,31.84183120005764,,,,,,001,,2025-02-15_14h38.57.604,MentalRotation,2024.2.4,60.00448831401875,2025-02-15 14h39.05.983106 +0000,
,,,,,,,,,,,,,,,,,,,,,,,,,,,,,,,,,,,,,,,,,,,,,,,31.86659920006059,31.883513999870047,31.883513999870047,31.883513999870047,37.49731469992548,001,,2025-02-15_14h38.57.604,MentalRotation,2024.2.4,60.00448831401875,2025-02-15 14h39.05.983106 +0000,
