left_im,right_im,leftori,rightori,corrAns,angle,thisN,thisTrialN,thisRepN,key_resp.keys,key_resp.corr,key_resp.rt,key_resp.duration,trials.thisRepN,trials.thisTrialN,trials.thisN,trials.thisIndex,thisRow.t,notes,Intructions_1.started,instr_key_1.started,instr_textbox1.started,Intructions_1.stopped,instr_key_1.keys,instr_key_1.rt,instr_key_1.duration,Intructions_2.started,image_L_3.started,image_R_3.started,instr_key_2.started,instrtxt2.started,Intructions_2.stopped,trial.started,image_L.started,image_R.started,key_resp.started,main_instr.started,trial_count.started,trial.stopped,trials.key_resp.keys,trials.key_resp.corr,trials.key_resp.rt,trials.key_resp.duration,feedback.started,fbtext.started,feedback.stopped,fbtext.stopped,the_end.started,end_txt.started,end_key.started,text.started,session,participant,date,expName,psychopyVersion,frameRate,expStart,
,,,,,,,,,,,,,,,,,,,0.022252799943089485,0.03386810002848506,0.03386810002848506,0.27512119989842176,m,0.23424270004034042,None,,,,,,,,,,,,,,,,,,,,,,,,,,001,,2025-02-15_14h40.33.009,MentalRotation,2024.2.4,60.03467606929142,2025-02-15 14h40.39.841789 +0000,
,,,,,,,,,,,,,,,,,,,,,,,,,,0.4236701000481844,0.5081716999411583,0.5081716999411583,0.5081716999411583,0.5081716999411583,0.5138796998653561,,,,,,,,,,,,,,,,,,,,001,,2025-02-15_14h40.33.009,MentalRotation,2024.2.4,60.03467606929142,2025-02-15 14h40.39.841789 +0000,
F.png,F.png,0,180,n,180,0,0,0,m,0,0.09913900005631149,None,0,0,0,8,0.764477799879387,,,,,,,,,,,,,,,0.7264461000449955,0.764477799879387,0.764477799879387,0.764477799879387,0.764477799879387,0.764477799879387,0.8699121999088675,m,0,0.09913900005631149,None,0.873252599965781,0.8835664999205619,1.3844426998402923,,,,,,001,,2025-02-15_14h40.33.009,MentalRotation,2024.2.4,60.03467606929142,2025-02-15 14h40.39.841789 +0000,
F.png,FR.png,0,270,m,270,1,1,0,m,1,0.11130550014786422,None,0,1,1,13,1.5830333000048995,,,,,,,,,,,,,,,1.5694629000499845,1.5830333000048995,1.5830333000048995,1.5830333000048995,1.5830333000048995,1.5830333000048995,1.7024044999852777,m,1,0.11130550014786422,None,1.7061701999045908,1.7153876000083983,2.201153399888426,2.3911027999129146,,,,,001,,2025-02-15_14h40.33.009,MentalRotation,2024.2.4,60.03467606929142,2025-02-15 14h40.39.841789 +0000,
FR.png,F.png,0,270,m,270,2,2,0,m,1,0.07014680001884699,None,0,2,2,29,2.3911027999129146,,,,,,,,,,,,,,,2.3485925998538733,2.3911027999129146,2.3911027999129146,2.3911027999129146,2.3911027999129146,2.3911027999129146,2.469843399943784,m,1,0.07014680001884699,None,2.470215499866754,2.481774899875745,2.9669407999608666,3.113285099854693,,,,,001,,2025-02-15_14h40.33.009,MentalRotation,2024.2.4,60.03467606929142,2025-02-15 14h40.39.841789 +0000,
FR.png,FR.png,0,225,n,225,3,3,0,n,1,0.13633490004576743,None,0,3,3,26,3.113285099854693,,,,,,,,,,,,,,,3.082773400004953,3.113285099854693,3.113285099854693,3.113285099854693,3.113285099854693,3.113285099854693,3.251208300003782,n,1,0.13633490004576743,None,3.251471000025049,3.2638646999839693,3.7496296998579055,3.930677499854937,,,,,001,,2025-02-15_14h40.33.009,MentalRotation,2024.2.4,60.03467606929142,2025-02-15 14h40.39.841789 +0000,
F.png,F.png,0,0,n,0,4,4,0,n,1,0.090059399837628,None,0,4,4,0,3.930677499854937,,,,,,,,,,,,,,,3.9036421000491828,3.930677499854937,3.930677499854937,3.930677499854937,3.930677499854937,3.930677499854937,4.033331000013277,n,1,0.090059399837628,None,4.033593199914321,4.046654799953103,4.531952999997884,4.6631970999296755,,,,,001,,2025-02-15_14h40.33.009,MentalRotation,2024.2.4,60.03467606929142,2025-02-15 14h40.39.841789 +0000,
F.png,F.png,0,135,n,135,5,5,0,n,1,0.08776159980334342,None,0,5,5,6,4.6631970999296755,,,,,,,,,,,,,,,4.648274400038645,4.6631970999296755,4.6631970999296755,4.6631970999296755,4.6631970999296755,4.6631970999296755,4.766130999894813,n,1,0.08776159980334342,None,4.766387899871916,4.779068399919197,5.26489600003697,5.412961999885738,,,,,001,,2025-02-15_14h40.33.009,MentalRotation,2024.2.4,60.03467606929142,2025-02-15 14h40.39.841789 +0000,
FR.png,F.png,0,315,m,315,6,6,0,n,0,0.06856040004640818,None,0,6,6,31,5.412961999885738,,,,,,,,,,,,,,,5.3884383998811245,5.412961999885738,5.412961999885738,5.412961999885738,5.412961999885738,5.412961999885738,5.498842099914327,n,0,0.06856040004640818,None,5.500828899908811,5.511711400002241,5.997053100029007,6.145294399932027,,,,,001,,2025-02-15_14h40.33.009,MentalRotation,2024.2.4,60.03467606929142,2025-02-15 14h40.39.841789 +0000,
F.png,FR.png,0,315,m,315,7,7,0,n,0,0.06668060016818345,None,0,7,7,15,6.145294399932027,,,,,,,,,,,,,,,6.119339999975637,6.145294399932027,6.145294399932027,6.145294399932027,6.145294399932027,6.145294399932027,6.214907099958509,n,0,0.06668060016818345,None,6.21518939989619,6.2278078000526875,6.713112799916416,6.8444955998566,,,,,001,,2025-02-15_14h40.33.009,MentalRotation,2024.2.4,60.03467606929142,2025-02-15 14h40.39.841789 +0000,
FR.png,FR.png,0,45,n,45,8,8,0,m,0,0.0012630000710487366,None,0,8,8,18,6.8444955998566,,,,,,,,,,,,,,,6.836146599845961,6.8444955998566,6.8444955998566,6.8444955998566,6.8444955998566,6.8444955998566,6.847954299999401,m,0,0.0012630000710487366,None,6.848216400016099,6.86066020000726,7.346223299857229,7.477900199824944,,,,,001,,2025-02-15_14h40.33.009,MentalRotation,2024.2.4,60.03467606929142,2025-02-15 14h40.39.841789 +0000,
FR.png,FR.png,0,180,n,180,9,9,0,m,0,0.1288477999623865,None,0,9,9,24,7.477900199824944,,,,,,,,,,,,,,,7.46456929994747,7.477900199824944,7.477900199824944,7.477900199824944,7.477900199824944,7.477900199824944,7.614544499898329,m,0,0.1288477999623865,None,7.614803900010884,7.626537699950859,8.112352799857035,8.267951499903575,,,,,001,,2025-02-15_14h40.33.009,MentalRotation,2024.2.4,60.03467606929142,2025-02-15 14h40.39.841789 +0000,
F.png,F.png,0,45,n,45,10,10,0,m,0,0.10956969996914268,None,0,10,10,2,8.267951499903575,,,,,,,,,,,,,,,8.22710879985243,8.267951499903575,8.267951499903575,8.267951499903575,8.267951499903575,8.267951499903575,8.380451199831441,m,0,0.10956969996914268,None,8.380702999886125,8.392016500001773,8.877865599934012,9.013870399910957,,,,,001,,2025-02-15_14h40.33.009,MentalRotation,2024.2.4,60.03467606929142,2025-02-15 14h40.39.841789 +0000,
F.png,F.png,0,225,n,225,11,11,0,n,1,0.014124500099569559,None,0,11,11,10,9.013870399910957,,,,,,,,,,,,,,,8.986185899935663,9.013870399910957,9.013870399910957,9.013870399910957,9.013870399910957,9.013870399910957,9.045176799874753,n,1,0.014124500099569559,None,9.04684289987199,9.05855660000816,9.543909499887377,9.673358999891207,,,,,001,,2025-02-15_14h40.33.009,MentalRotation,2024.2.4,60.03467606929142,2025-02-15 14h40.39.841789 +0000,
F.png,FR.png,0,90,m,90,12,12,0,m,1,0.009601800004020333,None,0,12,12,5,9.673358999891207,,,,,,,,,,,,,,,9.642252099933103,9.673358999891207,9.673358999891207,9.673358999891207,9.673358999891207,9.673358999891207,9.694738700054586,m,1,0.009601800004020333,None,9.695040799910203,9.707862299866974,10.193282600026578,10.333343100035563,,,,,001,,2025-02-15_14h40.33.009,MentalRotation,2024.2.4,60.03467606929142,2025-02-15 14h40.39.841789 +0000,
FR.png,F.png,0,135,m,135,13,13,0,m,1,0.11658699996769428,None,0,13,13,23,10.333343100035563,,,,,,,,,,,,,,,10.294528599828482,10.333343100035563,10.333343100035563,10.333343100035563,10.333343100035563,10.333343100035563,10.460356900002807,m,1,0.11658699996769428,None,10.460607799934223,10.473554899916053,10.959089299896732,11.089448099955916,,,,,001,,2025-02-15_14h40.33.009,MentalRotation,2024.2.4,60.03467606929142,2025-02-15 14h40.39.841789 +0000,
F.png,F.png,0,90,n,90,14,14,0,n,1,0.016893899999558926,None,0,14,14,4,11.089448099955916,,,,,,,,,,,,,,,11.051827399991453,11.089448099955916,11.089448099955916,11.089448099955916,11.089448099955916,11.089448099955916,11.11074859998189,n,1,0.016893899999558926,None,11.110995800001547,11.123183500021696,11.609358999878168,11.764877100009471,,,,,001,,2025-02-15_14h40.33.009,MentalRotation,2024.2.4,60.03467606929142,2025-02-15 14h40.39.841789 +0000,
FR.png,FR.png,0,0,n,0,15,15,0,n,1,0.11784349987283349,None,0,15,15,16,11.764877100009471,,,,,,,,,,,,,,,11.715637000044808,11.764877100009471,11.764877100009471,11.764877100009471,11.764877100009471,11.764877100009471,11.892339600017294,n,1,0.11784349987283349,None,11.892619699938223,11.90574559988454,12.390888199908659,12.521646599983796,,,,,001,,2025-02-15_14h40.33.009,MentalRotation,2024.2.4,60.03467606929142,2025-02-15 14h40.39.841789 +0000,
F.png,FR.png,0,45,m,45,16,16,0,m,1,0.03495560004375875,None,0,16,16,3,12.521646599983796,,,,,,,,,,,,,,,12.487490399973467,12.521646599983796,12.521646599983796,12.521646599983796,12.521646599983796,12.521646599983796,12.55941789993085,m,1,0.03495560004375875,None,12.559758399846032,12.571392899844795,13.057156299939379,13.212578099919483,,,,,001,,2025-02-15_14h40.33.009,MentalRotation,2024.2.4,60.03467606929142,2025-02-15 14h40.39.841789 +0000,
FR.png,F.png,0,0,m,0,17,17,0,n,0,0.01600750000216067,None,0,17,17,17,13.212578099919483,,,,,,,,,,,,,,,13.16619799984619,13.212578099919483,13.212578099919483,13.212578099919483,13.212578099919483,13.212578099919483,13.24084430001676,n,0,0.01600750000216067,None,13.242495599901304,13.254511900013313,13.739764499943703,13.8785377999302,,,,,001,,2025-02-15_14h40.33.009,MentalRotation,2024.2.4,60.03467606929142,2025-02-15 14h40.39.841789 +0000,
F.png,FR.png,0,180,m,180,18,18,0,m,1,0.014227800071239471,None,0,18,18,9,13.8785377999302,,,,,,,,,,,,,,,13.843096199911088,13.8785377999302,13.8785377999302,13.8785377999302,13.8785377999302,13.8785377999302,13.907186500029638,m,1,0.014227800071239471,None,13.908854099921882,13.92022700002417,14.405943999998271,14.534796899883077,,,,,001,,2025-02-15_14h40.33.009,MentalRotation,2024.2.4,60.03467606929142,2025-02-15 14h40.39.841789 +0000,
FR.png,FR.png,0,315,n,315,19,19,0,n,1,0.04907319997437298,None,0,19,19,30,14.534796899883077,,,,,,,,,,,,,,,14.507432000013068,14.534796899883077,14.534796899883077,14.534796899883077,14.534796899883077,14.534796899883077,14.590004599886015,n,1,0.04907319997437298,None,14.590253500035033,14.602749599842355,15.08820390002802,15.22463670000434,,,,,001,,2025-02-15_14h40.33.009,MentalRotation,2024.2.4,60.03467606929142,2025-02-15 14h40.39.841789 +0000,
FR.png,FR.png,0,270,n,270,20,20,0,m,0,0.016141100088134408,None,0,20,20,28,15.22463670000434,,,,,,,,,,,,,,,15.200035699876025,15.22463670000434,15.22463670000434,15.22463670000434,15.22463670000434,15.22463670000434,15.255974299972877,m,0,0.016141100088134408,None,15.257786300033331,15.26902040001005,15.753911999985576,15.874300400028005,,,,,001,,2025-02-15_14h40.33.009,MentalRotation,2024.2.4,60.03467606929142,2025-02-15 14h40.39.841789 +0000,
FR.png,FR.png,0,135,n,135,21,21,0,n,1,0.02838439983315766,None,0,21,21,22,15.874300400028005,,,,,,,,,,,,,,,15.85376919992268,15.874300400028005,15.874300400028005,15.874300400028005,15.874300400028005,15.874300400028005,15.905796400038525,n,1,0.02838439983315766,None,15.907558599952608,15.918299800017849,16.40346909989603,16.533382500056177,,,,,001,,2025-02-15_14h40.33.009,MentalRotation,2024.2.4,60.03467606929142,2025-02-15 14h40.39.841789 +0000,
FR.png,F.png,0,90,m,90,22,22,0,n,0,0.01040400005877018,None,0,22,22,21,16.533382500056177,,,,,,,,,,,,,,,16.50307339988649,16.533382500056177,16.533382500056177,16.533382500056177,16.533382500056177,16.533382500056177,16.55464469990693,n,0,0.01040400005877018,None,16.556593999965116,16.567357799969614,17.053049499867484,17.172925299964845,,,,,001,,2025-02-15_14h40.33.009,MentalRotation,2024.2.4,60.03467606929142,2025-02-15 14h40.39.841789 +0000,
FR.png,F.png,0,225,m,225,23,23,0,m,1,0.0372057999484241,None,0,23,23,27,17.172925299964845,,,,,,,,,,,,,,,17.158829599851742,17.172925299964845,17.172925299964845,17.172925299964845,17.172925299964845,17.172925299964845,17.22070589987561,m,1,0.0372057999484241,None,17.222421600017697,17.233526299940422,17.719063200056553,17.858160599833354,,,,,001,,2025-02-15_14h40.33.009,MentalRotation,2024.2.4,60.03467606929142,2025-02-15 14h40.39.841789 +0000,
F.png,FR.png,0,135,m,135,24,24,0,m,1,0.0746451998129487,None,0,24,24,7,17.858160599833354,,,,,,,,,,,,,,,17.815410800045356,17.858160599833354,17.858160599833354,17.858160599833354,17.858160599833354,17.858160599833354,17.936749099986628,m,1,0.0746451998129487,None,17.93701560003683,17.949342699954286,18.434767300030217,18.554573099827394,,,,,001,,2025-02-15_14h40.33.009,MentalRotation,2024.2.4,60.03467606929142,2025-02-15 14h40.39.841789 +0000,
F.png,FR.png,0,0,m,0,25,25,0,m,1,0.06973680015653372,None,0,25,25,1,18.554573099827394,,,,,,,,,,,,,,,18.53399599995464,18.554573099827394,18.554573099827394,18.554573099827394,18.554573099827394,18.554573099827394,18.63568970002234,m,1,0.06973680015653372,None,18.635981699917465,18.649100000038743,19.134341299999505,19.26328819990158,,,,,001,,2025-02-15_14h40.33.009,MentalRotation,2024.2.4,60.03467606929142,2025-02-15 14h40.39.841789 +0000,
FR.png,FR.png,0,90,n,90,26,26,0,m,0,0.04516520001925528,None,0,26,26,20,19.26328819990158,,,,,,,,,,,,,,,19.235357200028375,19.26328819990158,19.26328819990158,19.26328819990158,19.26328819990158,19.26328819990158,19.318621200043708,m,0,0.04516520001925528,None,19.32056330004707,19.332619299879298,19.832806899910793,,,,,,001,,2025-02-15_14h40.33.009,MentalRotation,2024.2.4,60.03467606929142,2025-02-15 14h40.39.841789 +0000,
F.png,F.png,0,270,n,270,27,27,0,m,0,0.06577789993025362,None,0,27,27,12,19.973145799944177,,,,,,,,,,,,,,,19.932172699831426,19.973145799944177,19.973145799944177,19.973145799944177,19.973145799944177,19.973145799944177,20.050923599861562,m,0,0.06577789993025362,None,20.051255299942568,20.06429159990512,20.549330399837345,20.679144599940628,,,,,001,,2025-02-15_14h40.33.009,MentalRotation,2024.2.4,60.03467606929142,2025-02-15 14h40.39.841789 +0000,
FR.png,F.png,0,45,m,45,28,28,0,m,1,0.07469440018758178,None,0,28,28,19,20.679144599940628,,,,,,,,,,,,,,,20.65615459997207,20.679144599940628,20.679144599940628,20.679144599940628,20.679144599940628,20.679144599940628,20.76730199996382,m,1,0.07469440018758178,None,20.76905529992655,20.780068299965933,21.265307599911466,21.404986900044605,,,,,001,,2025-02-15_14h40.33.009,MentalRotation,2024.2.4,60.03467606929142,2025-02-15 14h40.39.841789 +0000,
F.png,FR.png,0,225,m,225,29,29,0,m,1,0.11706689978018403,None,0,29,29,11,21.404986900044605,,,,,,,,,,,,,,,21.366229600040242,21.404986900044605,21.404986900044605,21.404986900044605,21.404986900044605,21.404986900044605,21.533150299917907,m,1,0.11706689978018403,None,21.533433699980378,21.546222999924794,22.031530699925497,22.189839700004086,,,,,001,,2025-02-15_14h40.33.009,MentalRotation,2024.2.4,60.03467606929142,2025-02-15 14h40.39.841789 +0000,
FR.png,F.png,0,180,m,180,30,30,0,m,1,0.2791383999865502,None,0,30,30,25,22.189839700004086,,,,,,,,,,,,,,,22.14986260002479,22.189839700004086,22.189839700004086,22.189839700004086,22.189839700004086,22.189839700004086,22.48285479983315,m,1,0.2791383999865502,None,22.48321449989453,22.495037999935448,22.980484299827367,23.110556399915367,,,,,001,,2025-02-15_14h40.33.009,MentalRotation,2024.2.4,60.03467606929142,2025-02-15 14h40.39.841789 +0000,
F.png,F.png,0,315,n,315,31,31,0,m,0,0.2701288000680506,None,0,31,31,14,23.110556399915367,,,,,,,,,,,,,,,23.082165099913254,23.110556399915367,23.110556399915367,23.110556399915367,23.110556399915367,23.110556399915367,23.381893299985677,m,0,0.2701288000680506,None,23.38360309996642,23.394142400007695,23.879602199885994,23.8938747998327,,,,,001,,2025-02-15_14h40.33.009,MentalRotation,2024.2.4,60.03467606929142,2025-02-15 14h40.39.841789 +0000,
,,,,,,,,,,,,,,,,,,,,,,,,,,,,,,,,,,,,,,,,,,,,,,,23.88491200003773,23.8938747998327,23.8938747998327,23.8938747998327,,,,,,,,
